Folder: X-Light/examples/example6

File: copper1.uxd
; (content of file: C:\Users\usmial\AppData\Local\Microsoft\Windows\INetCache\Content.Outlook\85Y1ATVD\Poudre Cu et etalon inco 01-06-21.stx, Point: Poudre Cu)
_FILEVERSION = 2
_SAMPLE = Poudre Cu et etalon inco 01-06-21
_+SAMPLE = "Poudre Cu et etalon inco 01-06-21, Poudre Cu"
_SITE =
_USER =
_GONIOMETER_CODE = 9999
; Goniometer: StressDiff, stage: Unknown
_GONIOMETER_RADIUS = 130.000
_ATTACHMENTS_CODE = 0
_BETA_FILTER = Y
_ANODE = Mn
_WL_UNIT = A
_WL1 = 2.10187
_WL2 = 2.10583
_WLRATIO = 0.500

; Data for Point: Poudre Cu, Direction: Direction 1
_DRIVE = 2THETA
_STEPTIME = 60.00
_STEPSIZE = 0.0220
_STEPMODE = S
_START = 137.894
_THETA = 76.000
_2THETA = 137.894
_KHI = -37.267
_PHI = 90.000
_X = -94.693
_Y = -392.395
_Z = -42.780
_VARDIVERGENCE = Unkn
_VARANTISCATTER = 9999
_DETECTOR = 0
; Detector type : Unknown
_DETECTORSLIT = out
_AUX1 = 0
_AUX2 = 0
_AUX3 = 0
_TEMP_RATE = -1
_TEMP_DELAY = -1
_KV = 20.00
_MA = 1.00
_RANGE_WL = 2.10187
_3DPLANE = 0
_V4_COUNTERS_MASK = 4096
_V4_DRIVES_MASK = 0
_V4_ENCODERS_MASK = 0
_COUNTS = 1
; PSD
      364
      313
      327
      340
      313
      285
      289
      334
      322
      365
      295
      315
      293
      346
      309
      336
      320
      307
      336
      352
      328
      312
      350
      347
      331
      340
      367
      345
      318
      379
      355
      338
      345
      349
      327
      349
      353
      319
      331
      358
      370
      346
      305
      315
      313
      309
      318
      333
      304
      348
      298
      325
      328
      326
      350
      359
      341
      335
      352
      335
      374
      366
      380
      363
      382
      353
      346
      348
      343
      363
      380
      408
      371
      373
      358
      348
      405
      411
      345
      376
      410
      404
      399
      436
      419
      472
      406
      437
      465
      428
      481
      513
      516
      539
      583
      653
      718
      794
      925
     1023
     1202
     1069
     1083
     1226
     1189
     1277
     1121
     1055
      945
      934
      918
      739
      765
      646
      609
      607
      526
      502
      477
      477
      460
      486
      435
      456
      420
      461
      418
      409
      427
      393
      397
      432
      461
      402
      405
      382
      406
      414
      422
      381
      383
      398
      370
      378
      415
      363
      387
      396
      381
      396
      416
      442
      394
      333
      400
      420
      379
      427
      400
      394
      421
      402
      398
      404
      399
      412
      376
      412
      384
      348
      404
      395
      369
      395
      424
      422
      390
      397
      393
      399
      412
      387
      462
      403
      460
      435
      418
      474
      429
      408
      393
      367
      399
      417
      397
      436
      357
      406
      403
      406
      420
      402
      363
      418
      394
      414
      463
      413
      413
      366
      402
      438
      387
      392
      378
      388
      434
      406
      449
      409
      438
      429
      430
      424
      391
      402
      342
      397
      412
      419
      386
      402
      400
      400
      405
      408
      447
      414
      427
      400
      409
      403
      397
      423
      454
      415
      432
      397
      409
      470
      435
      476
      390
      435
      401
      370
      424

File: copper2.uxd
; (content of file: C:\Users\usmial\AppData\Local\Microsoft\Windows\INetCache\Content.Outlook\85Y1ATVD\Poudre Cu et etalon inco 01-06-21.stx, Point: Poudre Cu)
_FILEVERSION = 2
_SAMPLE = Poudre Cu et etalon inco 01-06-21
_+SAMPLE = "Poudre Cu et etalon inco 01-06-21, Poudre Cu"
_SITE =
_USER =
_GONIOMETER_CODE = 9999
; Goniometer: StressDiff, stage: Unknown
_GONIOMETER_RADIUS = 130.000
_ATTACHMENTS_CODE = 0
_BETA_FILTER = Y
_WL_UNIT = A
_WL1 = 2.10187
_WL2 = 2.10583
_WLRATIO = 0.500
_ANODE = Mn

; Data for Point: Poudre Cu, Direction: Direction 2
_DRIVE = 2THETA
_STEPTIME = 60.00
_STEPSIZE = 0.0220
_STEPMODE = S
_START = 137.894
_THETA = 76.000
_2THETA = 137.894
_KHI = -33.211
_PHI = 90.000
_X = -94.693
_Y = -392.395
_Z = -42.780
_VARDIVERGENCE = Unkn
_VARANTISCATTER = 9999
_DETECTOR = 0
; Detector type : Unknown
_DETECTORSLIT = out
_AUX1 = 0
_AUX2 = 0
_AUX3 = 0
_TEMP_RATE = -1
_TEMP_DELAY = -1
_KV = 20.00
_MA = 1.00
_RANGE_WL = 2.10187
_3DPLANE = 0
_V4_COUNTERS_MASK = 4096
_V4_DRIVES_MASK = 0
_V4_ENCODERS_MASK = 0
_COUNTS = 1
; PSD
      354
      312
      338
      351
      301
      326
      326
      295
      352
      326
      350
      340
      322
      335
      349
      356
      316
      342
      352
      357
      373
      372
      343
      347
      347
      310
      350
      341
      384
      321
      344
      349
      361
      322
      346
      378
      316
      332
      357
      345
      330
      310
      335
      346
      346
      320
      325
      297
      362
      319
      315
      326
      312
      345
      396
      361
      319
      361
      335
      332
      384
      352
      335
      352
      357
      383
      342
      404
      346
      405
      351
      391
      357
      418
      382
      358
      365
      385
      403
      392
      415
      417
      396
      390
      397
      450
      432
      458
      438
      447
      474
      468
      476
      484
      599
      633
      698
      813
      907
     1027
     1127
     1085
     1179
     1216
     1197
     1392
     1111
     1132
     1063
      983
      924
      744
      786
      669
      571
      608
      562
      513
      539
      498
      454
      485
      463
      442
      401
      408
      426
      415
      421
      440
      459
      406
      381
      384
      380
      424
      393
      428
      364
      386
      381
      353
      365
      354
      396
      421
      388
      368
      398
      394
      361
      379
      383
      393
      421
      391
      413
      421
      415
      391
      441
      453
      406
      363
      419
      330
      421
      403
      411
      436
      388
      426
      389
      373
      409
      440
      403
      444
      425
      388
      392
      437
      428
      397
      398
      401
      443
      412
      408
      393
      411
      403
      371
      382
      412
      415
      406
      369
      427
      433
      429
      398
      423
      441
      396
      434
      434
      391
      417
      440
      460
      416
      404
      417
      409
      420
      425
      412
      430
      406
      410
      448
      356
      426
      396
      409
      416
      436
      402
      397
      383
      419
      391
      407
      477
      386
      423
      429
      414
      367
      410
      413
      451
      439
      382
      427
      421
      421
      412
      433
      428
      421
      413
      421
      452
      404
      466

File: copper3.uxd
; (content of file: C:\Users\usmial\AppData\Local\Microsoft\Windows\INetCache\Content.Outlook\85Y1ATVD\Poudre Cu et etalon inco 01-06-21.stx, Point: Poudre Cu)
_FILEVERSION = 2
_SAMPLE = Poudre Cu et etalon inco 01-06-21
_+SAMPLE = "Poudre Cu et etalon inco 01-06-21, Poudre Cu"
_SITE =
_USER =
_GONIOMETER_CODE = 9999
; Goniometer: StressDiff, stage: Unknown
_GONIOMETER_RADIUS = 130.000
_ATTACHMENTS_CODE = 0
_BETA_FILTER = Y
_WL_UNIT = A
_WL1 = 2.10187
_WL2 = 2.10583
_WLRATIO = 0.500
_ANODE = Mn

; Data for Point: Poudre Cu, Direction: Direction 3
_DRIVE = 2THETA
_STEPTIME = 60.00
_STEPSIZE = 0.0220
_STEPMODE = S
_START = 137.894
_THETA = 76.000
_2THETA = 137.894
_KHI = -28.885
_PHI = 90.000
_X = -94.693
_Y = -392.395
_Z = -42.780
_VARDIVERGENCE = Unkn
_VARANTISCATTER = 9999
_DETECTOR = 0
; Detector type : Unknown
_DETECTORSLIT = out
_AUX1 = 0
_AUX2 = 0
_AUX3 = 0
_TEMP_RATE = -1
_TEMP_DELAY = -1
_KV = 20.00
_MA = 1.00
_RANGE_WL = 2.10187
_3DPLANE = 0
_V4_COUNTERS_MASK = 4096
_V4_DRIVES_MASK = 0
_V4_ENCODERS_MASK = 0
_COUNTS = 1
; PSD
      346
      354
      329
      343
      291
      285
      331
      344
      328
      322
      353
      323
      350
      306
      324
      324
      352
      343
      372
      341
      303
      343
      320
      355
      326
      362
      341
      339
      366
      364
      328
      324
      329
      349
      380
      331
      345
      325
      323
      309
      337
      313
      333
      302
      313
      317
      334
      334
      335
      332
      335
      340
      337
      330
      376
      335
      324
      346
      369
      371
      379
      353
      357
      382
      416
      393
      347
      351
      387
      357
      370
      348
      348
      397
      397
      356
      368
      366
      400
      354
      383
      416
      427
      426
      423
      417
      371
      453
      417
      481
      483
      488
      500
      529
      615
      593
      645
      816
      841
      992
     1178
     1208
     1160
     1217
     1167
     1282
     1084
     1101
     1093
      992
      878
      838
      757
      672
      634
      607
      560
      506
      481
      518
      422
      472
      467
      398
      407
      421
      425
      434
      412
      408
      422
      401
      389
      439
      389
      417
      390
      430
      365
      375
      401
      383
      389
      378
      417
      421
      370
      394
      383
      353
      404
      436
      407
      370
      416
      390
      405
      396
      427
      408
      403
      426
      410
      405
      415
      406
      410
      403
      407
      445
      407
      417
      400
      371
      396
      406
      385
      403
      407
      363
      374
      444
      449
      411
      399
      392
      419
      409
      391
      412
      428
      370
      423
      437
      406
      388
      403
      388
      412
      388
      405
      375
      387
      436
      384
      401
      423
      409
      383
      420
      432
      407
      413
      460
      449
      402
      406
      401
      399
      400
      408
      429
      383
      422
      416
      412
      398
      407
      399
      432
      404
      397
      403
      409
      428
      386
      391
      406
      400
      394
      398
      392
      385
      376
      399
      437
      459
      401
      457
      397
      386
      444
      378
      403
      434
      417
      473

File: copper4.uxd
; (content of file: C:\Users\usmial\AppData\Local\Microsoft\Windows\INetCache\Content.Outlook\85Y1ATVD\Poudre Cu et etalon inco 01-06-21.stx, Point: Poudre Cu)
_FILEVERSION = 2
_SAMPLE = Poudre Cu et etalon inco 01-06-21
_+SAMPLE = "Poudre Cu et etalon inco 01-06-21, Poudre Cu"
_SITE =
_USER =
_GONIOMETER_CODE = 9999
; Goniometer: StressDiff, stage: Unknown
_GONIOMETER_RADIUS = 130.000
_ATTACHMENTS_CODE = 0
_BETA_FILTER = Y
_WL_UNIT = A
_WL1 = 2.10187
_WL2 = 2.10583
_WLRATIO = 0.500
_ANODE = Mn

; Data for Point: Poudre Cu, Direction: Direction 4
_DRIVE = 2THETA
_STEPTIME = 60.00
_STEPSIZE = 0.0220
_STEPMODE = S
_START = 137.894
_THETA = 76.000
_2THETA = 137.894
_KHI = -24.095
_PHI = 90.000
_X = -94.693
_Y = -392.395
_Z = -42.780
_VARDIVERGENCE = Unkn
_VARANTISCATTER = 9999
_DETECTOR = 0
; Detector type : Unknown
_DETECTORSLIT = out
_AUX1 = 0
_AUX2 = 0
_AUX3 = 0
_TEMP_RATE = -1
_TEMP_DELAY = -1
_KV = 20.00
_MA = 1.00
_RANGE_WL = 2.10187
_3DPLANE = 0
_V4_COUNTERS_MASK = 4096
_V4_DRIVES_MASK = 0
_V4_ENCODERS_MASK = 0
_COUNTS = 1
; PSD
      352
      298
      314
      318
      324
      313
      315
      327
      329
      337
      334
      353
      340
      356
      376
      298
      339
      304
      342
      336
      337
      329
      331
      315
      314
      339
      319
      363
      362
      359
      344
      348
      385
      348
      325
      343
      348
      318
      326
      329
      366
      313
      341
      348
      329
      316
      359
      351
      365
      375
      310
      340
      322
      337
      362
      349
      333
      352
      359
      381
      342
      345
      354
      364
      380
      362
      385
      365
      357
      382
      349
      388
      350
      412
      366
      357
      355
      354
      428
      418
      430
      423
      375
      370
      452
      444
      420
      434
      426
      458
      500
      470
      497
      528
      612
      643
      661
      794
      862
     1051
     1275
     1229
     1197
     1238
     1118
     1276
     1049
     1050
     1063
      967
      901
      871
      716
      669
      572
      573
      555
      479
      498
      476
      412
      415
      451
      470
      424
      424
      404
      401
      469
      410
      421
      423
      420
      359
      393
      418
      433
      431
      402
      410
      372
      380
      392
      399
      414
      438
      368
      348
      412
      378
      386
      407
      372
      430
      379
      409
      371
      409
      419
      412
      417
      401
      399
      400
      417
      401
      451
      378
      368
      405
      383
      398
      391
      389
      399
      455
      390
      370
      407
      336
      413
      417
      454
      428
      421
      424
      455
      430
      405
      429
      377
      374
      395
      378
      407
      411
      394
      417
      377
      370
      439
      427
      371
      412
      398
      433
      440
      416
      416
      419
      437
      443
      417
      418
      380
      408
      441
      405
      416
      432
      413
      447
      394
      448
      422
      344
      422
      384
      394
      404
      382
      405
      392
      442
      406
      401
      404
      422
      428
      393
      414
      398
      399
      440
      411
      387
      408
      440
      391
      413
      421
      396
      421
      386
      393
      399
      452

File: copper5.uxd
; (content of file: C:\Users\usmial\AppData\Local\Microsoft\Windows\INetCache\Content.Outlook\85Y1ATVD\Poudre Cu et etalon inco 01-06-21.stx, Point: Poudre Cu)
_FILEVERSION = 2
_SAMPLE = Poudre Cu et etalon inco 01-06-21
_+SAMPLE = "Poudre Cu et etalon inco 01-06-21, Poudre Cu"
_SITE =
_USER =
_GONIOMETER_CODE = 9999
; Goniometer: StressDiff, stage: Unknown
_GONIOMETER_RADIUS = 130.000
_ATTACHMENTS_CODE = 0
_BETA_FILTER = Y
_WL_UNIT = A
_WL1 = 2.10187
_WL2 = 2.10583
_WLRATIO = 0.500
_ANODE = Mn

; Data for Point: Poudre Cu, Direction: Direction 5
_DRIVE = 2THETA
_STEPTIME = 60.00
_STEPSIZE = 0.0220
_STEPMODE = S
_START = 137.894
_THETA = 76.000
_2THETA = 137.894
_KHI = -18.435
_PHI = 90.000
_X = -94.693
_Y = -392.395
_Z = -42.780
_VARDIVERGENCE = Unkn
_VARANTISCATTER = 9999
_DETECTOR = 0
; Detector type : Unknown
_DETECTORSLIT = out
_AUX1 = 0
_AUX2 = 0
_AUX3 = 0
_TEMP_RATE = -1
_TEMP_DELAY = -1
_KV = 20.00
_MA = 1.00
_RANGE_WL = 2.10187
_3DPLANE = 0
_V4_COUNTERS_MASK = 4096
_V4_DRIVES_MASK = 0
_V4_ENCODERS_MASK = 0
_COUNTS = 1
; PSD
      347
      332
      316
      337
      334
      319
      304
      338
      307
      331
      336
      346
      347
      330
      338
      314
      325
      341
      341
      336
      332
      326
      344
      360
      301
      385
      381
      349
      341
      328
      319
      363
      333
      354
      367
      342
      343
      333
      358
      333
      317
      306
      335
      315
      329
      322
      355
      328
      351
      359
      326
      361
      378
      376
      314
      351
      329
      339
      359
      345
      358
      337
      354
      383
      388
      328
      352
      346
      378
      375
      330
      403
      379
      355
      397
      361
      372
      380
      396
      401
      408
      404
      460
      422
      450
      423
      387
      440
      473
      454
      486
      446
      485
      484
      569
      621
      697
      784
      863
     1032
     1251
     1202
     1179
     1285
     1130
     1246
     1075
     1100
     1086
      974
      929
      837
      771
      686
      630
      586
      528
      520
      457
      453
      436
      437
      464
      448
      452
      366
      463
      369
      426
      413
      393
      407
      375
      378
      424
      378
      389
      463
      403
      375
      380
      382
      375
      401
      423
      385
      367
      403
      376
      394
      367
      376
      377
      379
      416
      425
      427
      405
      386
      373
      405
      390
      388
      394
      415
      422
      433
      379
      387
      397
      402
      411
      396
      430
      408
      396
      394
      390
      382
      437
      408
      402
      424
      418
      426
      444
      423
      433
      411
      435
      438
      394
      429
      391
      382
      411
      392
      396
      406
      402
      401
      393
      379
      402
      412
      402
      413
      400
      427
      402
      434
      440
      439
      404
      401
      404
      456
      416
      383
      406
      420
      430
      406
      407
      408
      396
      449
      421
      393
      382
      389
      438
      446
      391
      385
      403
      413
      419
      400
      423
      403
      395
      419
      425
      400
      408
      410
      431
      435
      436
      395
      394
      393
      410
      387
      413
      463

File: copper6.uxd
; (content of file: C:\Users\usmial\AppData\Local\Microsoft\Windows\INetCache\Content.Outlook\85Y1ATVD\Poudre Cu et etalon inco 01-06-21.stx, Point: Poudre Cu)
_FILEVERSION = 2
_SAMPLE = Poudre Cu et etalon inco 01-06-21
_+SAMPLE = "Poudre Cu et etalon inco 01-06-21, Poudre Cu"
_SITE =
_USER =
_GONIOMETER_CODE = 9999
; Goniometer: StressDiff, stage: Unknown
_GONIOMETER_RADIUS = 130.000
_ATTACHMENTS_CODE = 0
_BETA_FILTER = Y
_WL_UNIT = A
_WL1 = 2.10187
_WL2 = 2.10583
_WLRATIO = 0.500
_ANODE = Mn

; Data for Point: Poudre Cu, Direction: Direction 6
_DRIVE = 2THETA
_STEPTIME = 60.00
_STEPSIZE = 0.0220
_STEPMODE = S
_START = 137.894
_THETA = 76.000
_2THETA = 137.894
_KHI = -10.520
_PHI = 90.000
_X = -94.693
_Y = -392.395
_Z = -42.780
_VARDIVERGENCE = Unkn
_VARANTISCATTER = 9999
_DETECTOR = 0
; Detector type : Unknown
_DETECTORSLIT = out
_AUX1 = 0
_AUX2 = 0
_AUX3 = 0
_TEMP_RATE = -1
_TEMP_DELAY = -1
_KV = 20.00
_MA = 1.00
_RANGE_WL = 2.10187
_3DPLANE = 0
_V4_COUNTERS_MASK = 4096
_V4_DRIVES_MASK = 0
_V4_ENCODERS_MASK = 0
_COUNTS = 1
; PSD
      350
      327
      351
      282
      297
      324
      341
      336
      340
      397
      329
      323
      302
      330
      298
      341
      307
      325
      331
      343
      298
      330
      341
      337
      317
      360
      385
      361
      361
      351
      302
      337
      350
      323
      331
      313
      342
      363
      356
      340
      352
      322
      348
      343
      357
      299
      342
      333
      351
      326
      322
      331
      309
      338
      352
      352
      342
      382
      360
      333
      365
      376
      342
      366
      379
      369
      340
      345
      360
      322
      357
      372
      370
      342
      370
      387
      402
      411
      410
      388
      382
      421
      398
      381
      414
      438
      430
      447
      464
      487
      482
      435
      459
      479
      614
      633
      665
      778
      877
     1072
     1225
     1391
     1281
     1273
     1117
     1315
     1083
     1073
     1058
     1034
      886
      841
      773
      667
      585
      572
      504
      513
      475
      459
      455
      450
      414
      457
      426
      420
      446
      446
      445
      423
      406
      420
      428
      387
      442
      371
      380
      427
      394
      398
      394
      351
      351
      384
      396
      423
      405
      431
      361
      364
      370
      376
      406
      384
      407
      428
      400
      376
      406
      427
      384
      423
      406
      446
      409
      372
      447
      367
      387
      398
      445
      418
      399
      379
      383
      390
      375
      419
      392
      346
      369
      388
      410
      434
      391
      398
      383
      437
      395
      420
      388
      408
      421
      382
      413
      410
      413
      423
      373
      416
      451
      408
      387
      418
      366
      453
      425
      427
      448
      419
      420
      449
      394
      401
      394
      374
      412
      425
      434
      373
      419
      447
      402
      406
      404
      409
      427
      378
      391
      392
      384
      451
      386
      401
      405
      391
      417
      415
      407
      415
      379
      369
      448
      396
      418
      424
      381
      413
      437
      441
      400
      403
      378
      420
      409
      408
      454

File: copper7.uxd
; (content of file: C:\Users\usmial\AppData\Local\Microsoft\Windows\INetCache\Content.Outlook\85Y1ATVD\Poudre Cu et etalon inco 01-06-21.stx, Point: Poudre Cu)
_FILEVERSION = 2
_SAMPLE = Poudre Cu et etalon inco 01-06-21
_+SAMPLE = "Poudre Cu et etalon inco 01-06-21, Poudre Cu"
_SITE =
_USER =
_GONIOMETER_CODE = 9999
; Goniometer: StressDiff, stage: Unknown
_GONIOMETER_RADIUS = 130.000
_ATTACHMENTS_CODE = 0
_BETA_FILTER = Y
_WL_UNIT = A
_WL1 = 2.10187
_WL2 = 2.10583
_WLRATIO = 0.500
_ANODE = Mn

; Data for Point: Poudre Cu, Direction: Direction 7
_DRIVE = 2THETA
_STEPTIME = 60.00
_STEPSIZE = 0.0220
_STEPMODE = S
_START = 137.894
_THETA = 76.000
_2THETA = 137.894
_KHI = 0.000
_PHI = 90.000
_X = -94.693
_Y = -392.395
_Z = -42.780
_VARDIVERGENCE = Unkn
_VARANTISCATTER = 9999
_DETECTOR = 0
; Detector type : Unknown
_DETECTORSLIT = out
_AUX1 = 0
_AUX2 = 0
_AUX3 = 0
_TEMP_RATE = -1
_TEMP_DELAY = -1
_KV = 20.00
_MA = 1.00
_RANGE_WL = 2.10187
_3DPLANE = 0
_V4_COUNTERS_MASK = 4096
_V4_DRIVES_MASK = 0
_V4_ENCODERS_MASK = 0
_COUNTS = 1
; PSD
      312
      322
      299
      324
      314
      344
      353
      356
      321
      385
      308
      309
      318
      337
      356
      328
      330
      333
      335
      324
      366
      321
      312
      382
      354
      302
      356
      316
      352
      342
      373
      327
      331
      365
      273
      344
      384
      360
      348
      342
      340
      347
      354
      313
      355
      323
      318
      331
      341
      333
      295
      387
      348
      340
      377
      362
      331
      389
      329
      389
      385
      359
      353
      341
      361
      354
      384
      343
      373
      346
      362
      368
      352
      367
      348
      364
      407
      414
      355
      402
      430
      402
      361
      381
      413
      428
      413
      384
      431
      461
      515
      478
      489
      474
      588
      651
      699
      779
      868
     1094
     1219
     1211
     1168
     1250
     1075
     1156
      980
     1050
     1066
      980
      950
      776
      749
      710
      580
      569
      584
      548
      488
      470
      460
      501
      426
      431
      424
      380
      416
      409
      398
      434
      376
      423
      405
      365
      419
      390
      370
      396
      369
      405
      367
      387
      391
      389
      376
      414
      373
      372
      384
      384
      384
      359
      393
      358
      364
      383
      388
      414
      409
      413
      419
      420
      389
      436
      433
      422
      404
      433
      404
      393
      413
      405
      382
      399
      416
      404
      398
      392
      398
      367
      413
      436
      401
      409
      421
      398
      416
      422
      393
      403
      392
      386
      419
      440
      377
      413
      426
      401
      391
      406
      364
      397
      410
      399
      395
      401
      386
      413
      428
      380
      436
      404
      442
      415
      400
      429
      399
      426
      435
      396
      415
      417
      406
      411
      431
      385
      387
      411
      400
      437
      389
      396
      410
      413
      492
      364
      412
      444
      399
      411
      405
      421
      419
      406
      402
      376
      412
      420
      406
      404
      388
      414
      442
      373
      389
      416
      447