Folder: X-Light/examples/example6 (part 2)

File: copper8.uxd
; (content of file: C:\Users\usmial\AppData\Local\Microsoft\Windows\INetCache\Content.Outlook\85Y1ATVD\Poudre Cu et etalon inco 01-06-21.stx, Point: Poudre Cu)
_FILEVERSION = 2
_SAMPLE = Poudre Cu et etalon inco 01-06-21
_+SAMPLE = "Poudre Cu et etalon inco 01-06-21, Poudre Cu"
_SITE =
_USER =
_GONIOMETER_CODE = 9999
; Goniometer: StressDiff, stage: Unknown
_GONIOMETER_RADIUS = 130.000
_ATTACHMENTS_CODE = 0
_BETA_FILTER = Y
_WL_UNIT = A
_WL1 = 2.10187
_WL2 = 2.10583
_WLRATIO = 0.500
_ANODE = Mn

; Data for Point: Poudre Cu, Direction: Direction 8
_DRIVE = 2THETA
_STEPTIME = 60.00
_STEPSIZE = 0.0220
_STEPMODE = S
_START = 137.894
_THETA = 76.000
_2THETA = 137.894
_KHI = 14.963
_PHI = 90.000
_X = -94.693
_Y = -392.395
_Z = -42.780
_VARDIVERGENCE = Unkn
_VARANTISCATTER = 9999
_DETECTOR = 0
; Detector type : Unknown
_DETECTORSLIT = out
_AUX1 = 0
_AUX2 = 0
_AUX3 = 0
_TEMP_RATE = -1
_TEMP_DELAY = -1
_KV = 20.00
_MA = 1.00
_RANGE_WL = 2.10187
_3DPLANE = 0
_V4_COUNTERS_MASK = 4096
_V4_DRIVES_MASK = 0
_V4_ENCODERS_MASK = 0
_COUNTS = 1
; PSD
      361
      309
      329
      338
      308
      341
      352
      327
      300
      361
      352
      319
      349
      314
      352
      342
      334
      307
      344
      369
      336
      345
      355
      365
      330
      304
      357
      299
      361
      363
      331
      345
      342
      363
      352
      316
      304
      327
      317
      332
      333
      349
      371
      284
      331
      332
      344
      325
      353
      353
      351
      345
      344
      341
      367
      356
      344
      340
      350
      397
      350
      363
      332
      365
      366
      360
      369
      374
      382
      358
      366
      377
      382
      362
      360
      365
      362
      385
      426
      395
      392
      401
      384
      389
      435
      422
      398
      441
      416
      443
      475
      446
      520
      509
      590
      637
      682
      774
      896
     1069
     1226
     1234
     1134
     1271
     1143
     1304
     1102
     1041
     1055
      983
      990
      796
      730
      642
      586
      559
      534
      520
      498
      476
      449
      456
      454
      440
      454
      422
      427
      388
      398
      413
      423
      394
      408
      430
      384
      394
      447
      401
      373
      423
      387
      414
      397
      406
      369
      415
      364
      398
      380
      387
      369
      389
      412
      373
      385
      379
      394
      400
      405
      391
      379
      413
      377
      365
      420
      390
      392
      406
      428
      369
      435
      419
      368
      366
      459
      422
      364
      416
      397
      392
      380
      380
      475
      409
      420
      385
      403
      457
      431
      396
      414
      369
      433
      430
      383
      405
      390
      421
      378
      422
      402
      365
      375
      427
      362
      433
      426
      369
      436
      426
      450
      465
      370
      441
      411
      362
      448
      422
      386
      364
      448
      391
      426
      444
      431
      381
      397
      429
      429
      408
      391
      386
      424
      382
      476
      395
      391
      415
      419
      414
      394
      421
      425
      415
      430
      418
      416
      425
      425
      453
      412
      463
      404
      400
      387
      373
      464

File: copper9.uxd
; (content of file: C:\Users\usmial\AppData\Local\Microsoft\Windows\INetCache\Content.Outlook\85Y1ATVD\Poudre Cu et etalon inco 01-06-21.stx, Point: Poudre Cu)
_FILEVERSION = 2
_SAMPLE = Poudre Cu et etalon inco 01-06-21
_+SAMPLE = "Poudre Cu et etalon inco 01-06-21, Poudre Cu"
_SITE =
_USER =
_GONIOMETER_CODE = 9999
; Goniometer: StressDiff, stage: Unknown
_GONIOMETER_RADIUS = 130.000
_ATTACHMENTS_CODE = 0
_BETA_FILTER = Y
_WL_UNIT = A
_WL1 = 2.10187
_WL2 = 2.10583
_WLRATIO = 0.500
_ANODE = Mn

; Data for Point: Poudre Cu, Direction: Direction 9
_DRIVE = 2THETA
_STEPTIME = 60.00
_STEPSIZE = 0.0220
_STEPMODE = S
_START = 137.894
_THETA = 76.000
_2THETA = 137.894
_KHI = 21.417
_PHI = 90.000
_X = -94.693
_Y = -392.395
_Z = -42.780
_VARDIVERGENCE = Unkn
_VARANTISCATTER = 9999
_DETECTOR = 0
; Detector type : Unknown
_DETECTORSLIT = out
_AUX1 = 0
_AUX2 = 0
_AUX3 = 0
_TEMP_RATE = -1
_TEMP_DELAY = -1
_KV = 20.00
_MA = 1.00
_RANGE_WL = 2.10187
_3DPLANE = 0
_V4_COUNTERS_MASK = 4096
_V4_DRIVES_MASK = 0
_V4_ENCODERS_MASK = 0
_COUNTS = 1
; PSD
      344
      357
      306
      333
      342
      348
      343
      338
      323
      328
      340
      314
      322
      373
      326
      317
      350
      300
      372
      325
      343
      334
      356
      345
      353
      327
      325
      338
      397
      357
      302
      357
      381
      374
      324
      357
      337
      355
      334
      340
      349
      324
      345
      317
      344
      337
      368
      332
      365
      331
      353
      374
      302
      339
      359
      343
      349
      377
      325
      356
      390
      364
      353
      369
      357
      367
      340
      367
      355
      371
      364
      346
      363
      387
      360
      377
      366
      352
      404
      386
      418
      424
      428
      401
      398
      414
      416
      429
      433
      455
      472
      507
      507
      509
      563
      615
      638
      737
      834
     1121
     1148
     1196
     1219
     1262
     1199
     1266
     1070
     1092
     1069
      977
      909
      851
      779
      700
      587
      608
      539
      537
      496
      437
      457
      498
      441
      448
      451
      434
      427
      408
      426
      420
      364
      372
      401
      375
      412
      381
      393
      437
      432
      421
      394
      389
      365
      381
      383
      401
      393
      386
      381
      375
      402
      372
      383
      375
      388
      396
      400
      412
      406
      389
      396
      430
      421
      412
      379
      378
      413
      394
      422
      389
      404
      413
      434
      415
      383
      443
      366
      430
      390
      425
      438
      437
      385
      415
      418
      415
      432
      439
      397
      403
      401
      418
      369
      409
      395
      405
      411
      383
      433
      384
      411
      391
      417
      388
      389
      398
      465
      432
      413
      391
      449
      413
      430
      448
      424
      386
      421
      382
      424
      447
      430
      406
      427
      393
      415
      383
      419
      411
      406
      417
      398
      454
      422
      422
      457
      411
      398
      424
      412
      378
      418
      360
      391
      403
      424
      399
      448
      422
      409
      489
      379
      443
      366
      406
      397
      403
      440

File: copper10.uxd
; (content of file: C:\Users\usmial\AppData\Local\Microsoft\Windows\INetCache\Content.Outlook\85Y1ATVD\Poudre Cu et etalon inco 01-06-21.stx, Point: Poudre Cu)
_FILEVERSION = 2
_SAMPLE = Poudre Cu et etalon inco 01-06-21
_+SAMPLE = "Poudre Cu et etalon inco 01-06-21, Poudre Cu"
_SITE =
_USER =
_GONIOMETER_CODE = 9999
; Goniometer: StressDiff, stage: Unknown
_GONIOMETER_RADIUS = 130.000
_ATTACHMENTS_CODE = 0
_BETA_FILTER = Y
_WL_UNIT = A
_WL1 = 2.10187
_WL2 = 2.10583
_WLRATIO = 0.500
_ANODE = Mn

; Data for Point: Poudre Cu, Direction: Direction 10
_DRIVE = 2THETA
_STEPTIME = 60.00
_STEPSIZE = 0.0220
_STEPMODE = S
_START = 137.894
_THETA = 76.000
_2THETA = 137.894
_KHI = 26.565
_PHI = 90.000
_X = -94.693
_Y = -392.395
_Z = -42.780
_VARDIVERGENCE = Unkn
_VARANTISCATTER = 9999
_DETECTOR = 0
; Detector type : Unknown
_DETECTORSLIT = out
_AUX1 = 0
_AUX2 = 0
_AUX3 = 0
_TEMP_RATE = -1
_TEMP_DELAY = -1
_KV = 20.00
_MA = 1.00
_RANGE_WL = 2.10187
_3DPLANE = 0
_V4_COUNTERS_MASK = 4096
_V4_DRIVES_MASK = 0
_V4_ENCODERS_MASK = 0
_COUNTS = 1
; PSD
      350
      327
      371
      327
      293
      304
      307
      327
      366
      329
      310
      345
      333
      322
      289
      351
      347
      340
      350
      353
      325
      327
      365
      348
      331
      326
      344
      349
      333
      357
      368
      355
      326
      392
      319
      311
      329
      336
      355
      327
      344
      345
      380
      326
      324
      340
      325
      312
      356
      351
      312
      368
      339
      333
      367
      356
      355
      324
      358
      364
      364
      365
      351
      370
      399
      366
      348
      351
      377
      366
      320
      334
      371
      408
      358
      358
      368
      394
      407
      382
      419
      423
      414
      411
      423
      440
      440
      445
      446
      466
      498
      475
      482
      502
      603
      607
      625
      779
      852
     1085
     1154
     1161
     1096
     1295
     1129
     1273
     1176
     1095
     1096
      967
      941
      843
      779
      709
      639
      648
      566
      456
      471
      460
      402
      445
      399
      433
      433
      425
      402
      422
      395
      426
      444
      456
      440
      381
      405
      381
      379
      419
      437
      405
      390
      391
      382
      386
      418
      416
      366
      395
      375
      394
      378
      378
      388
      374
      390
      407
      387
      412
      400
      417
      383
      386
      404
      395
      402
      393
      419
      402
      425
      365
      427
      405
      394
      428
      394
      420
      374
      389
      372
      364
      395
      387
      426
      438
      410
      390
      383
      455
      416
      449
      416
      427
      441
      400
      399
      425
      377
      440
      417
      376
      420
      371
      386
      401
      405
      442
      414
      398
      458
      443
      441
      401
      404
      436
      411
      410
      447
      413
      417
      416
      415
      376
      431
      417
      359
      375
      405
      386
      364
      414
      372
      411
      410
      433
      415
      394
      412
      370
      445
      403
      385
      382
      441
      410
      386
      408
      418
      436
      439
      412
      399
      416
      442
      378
      432
      399
      456

File: copper11.uxd
; (content of file: C:\Users\usmial\AppData\Local\Microsoft\Windows\INetCache\Content.Outlook\85Y1ATVD\Poudre Cu et etalon inco 01-06-21.stx, Point: Poudre Cu)
_FILEVERSION = 2
_SAMPLE = Poudre Cu et etalon inco 01-06-21
_+SAMPLE = "Poudre Cu et etalon inco 01-06-21, Poudre Cu"
_SITE =
_USER =
_GONIOMETER_CODE = 9999
; Goniometer: StressDiff, stage: Unknown
_GONIOMETER_RADIUS = 130.000
_ATTACHMENTS_CODE = 0
_BETA_FILTER = Y
_WL_UNIT = A
_WL1 = 2.10187
_WL2 = 2.10583
_WLRATIO = 0.500
_ANODE = Mn

; Data for Point: Poudre Cu, Direction: Direction 11
_DRIVE = 2THETA
_STEPTIME = 60.00
_STEPSIZE = 0.0220
_STEPMODE = S
_START = 137.894
_THETA = 76.000
_2THETA = 137.894
_KHI = 31.091
_PHI = 90.000
_X = -94.693
_Y = -392.395
_Z = -42.780
_VARDIVERGENCE = Unkn
_VARANTISCATTER = 9999
_DETECTOR = 0
; Detector type : Unknown
_DETECTORSLIT = out
_AUX1 = 0
_AUX2 = 0
_AUX3 = 0
_TEMP_RATE = -1
_TEMP_DELAY = -1
_KV = 20.00
_MA = 1.00
_RANGE_WL = 2.10187
_3DPLANE = 0
_V4_COUNTERS_MASK = 4096
_V4_DRIVES_MASK = 0
_V4_ENCODERS_MASK = 0
_COUNTS = 1
; PSD
      333
      331
      313
      331
      317
      290
      307
      334
      329
      347
      331
      409
      334
      337
      330
      371
      329
      342
      336
      346
      334
      315
      324
      352
      293
      335
      333
      339
      292
      315
      328
      349
      358
      338
      319
      338
      334
      329
      305
      344
      330
      332
      316
      326
      382
      326
      344
      321
      326
      321
      312
      363
      374
      360
      371
      374
      375
      354
      339
      349
      356
      367
      353
      363
      374
      387
      365
      359
      345
      360
      371
      432
      321
      357
      387
      372
      367
      401
      397
      350
      360
      368
      413
      403
      449
      421
      384
      442
      465
      464
      494
      482
      483
      548
      587
      640
      668
      827
      885
     1084
     1156
     1172
     1136
     1272
     1122
     1265
     1133
     1104
     1078
     1008
      940
      797
      716
      694
      605
      583
      598
      512
      471
      474
      417
      427
      429
      454
      420
      432
      414
      419
      432
      457
      418
      422
      432
      372
      392
      381
      375
      428
      415
      364
      364
      358
      362
      403
      377
      390
      392
      415
      402
      418
      372
      409
      386
      379
      370
      381
      389
      414
      374
      409
      422
      418
      388
      401
      414
      403
      390
      404
      442
      386
      436
      403
      364
      392
      455
      406
      425
      361
      398
      391
      395
      388
      418
      416
      414
      408
      381
      409
      387
      386
      384
      365
      390
      410
      426
      410
      381
      357
      384
      398
      380
      424
      363
      411
      420
      405
      464
      405
      405
      412
      441
      374
      437
      413
      425
      418
      371
      426
      428
      394
      397
      409
      399
      392
      411
      387
      401
      458
      398
      400
      373
      393
      406
      352
      418
      366
      363
      410
      408
      384
      378
      392
      416
      458
      431
      407
      443
      441
      405
      384
      389
      443
      355
      409
      394
      388
      430

File: copper12.uxd
; (content of file: C:\Users\usmial\AppData\Local\Microsoft\Windows\INetCache\Content.Outlook\85Y1ATVD\Poudre Cu et etalon inco 01-06-21.stx, Point: Poudre Cu)
_FILEVERSION = 2
_SAMPLE = Poudre Cu et etalon inco 01-06-21
_+SAMPLE = "Poudre Cu et etalon inco 01-06-21, Poudre Cu"
_SITE =
_USER =
_GONIOMETER_CODE = 9999
; Goniometer: StressDiff, stage: Unknown
_GONIOMETER_RADIUS = 130.000
_ATTACHMENTS_CODE = 0
_BETA_FILTER = Y
_WL_UNIT = A
_WL1 = 2.10187
_WL2 = 2.10583
_WLRATIO = 0.500
_ANODE = Mn

; Data for Point: Poudre Cu, Direction: Direction 12
_DRIVE = 2THETA
_STEPTIME = 60.00
_STEPSIZE = 0.0220
_STEPMODE = S
_START = 137.894
_THETA = 76.000
_2THETA = 137.894
_KHI = 35.264
_PHI = 90.000
_X = -94.693
_Y = -392.395
_Z = -42.780
_VARDIVERGENCE = Unkn
_VARANTISCATTER = 9999
_DETECTOR = 0
; Detector type : Unknown
_DETECTORSLIT = out
_AUX1 = 0
_AUX2 = 0
_AUX3 = 0
_TEMP_RATE = -1
_TEMP_DELAY = -1
_KV = 20.00
_MA = 1.00
_RANGE_WL = 2.10187
_3DPLANE = 0
_V4_COUNTERS_MASK = 4096
_V4_DRIVES_MASK = 0
_V4_ENCODERS_MASK = 0
_COUNTS = 1
; PSD
      298
      306
      317
      331
      334
      316
      336
      325
      332
      325
      347
      338
      312
      327
      322
      344
      339
      324
      351
      326
      308
      353
      329
      367
      343
      332
      352
      336
      326
      366
      351
      330
      399
      353
      309
      325
      312
      350
      356
      344
      361
      342
      352
      340
      351
      282
      335
      329
      318
      312
      313
      383
      388
      348
      338
      363
      341
      356
      367
      339
      339
      383
      349
      362
      365
      406
      364
      349
      381
      368
      375
      369
      369
      337
      358
      385
      377
      372
      412
      412
      426
      443
      393
      422
      416
      423
      409
      505
      442
      443
      505
      446
      487
      519
      593
      614
      661
      783
      870
     1047
     1180
     1165
     1104
     1250
     1137
     1256
     1135
     1042
     1006
      998
      967
      823
      734
      721
      561
      591
      566
      542
      544
      440
      470
      503
      417
      445
      457
      408
      413
      381
      400
      430
      409
      422
      436
      367
      430
      406
      371
      395
      424
      381
      382
      412
      373
      402
      360
      398
      375
      362
      355
      366
      394
      383
      394
      355
      394
      413
      409
      392
      408
      416
      430
      391
      386
      397
      379
      407
      397
      398
      445
      430
      428
      397
      388
      427
      423
      402
      398
      369
      426
      387
      428
      368
      400
      414
      403
      369
      423
      429
      406
      366
      402
      428
      411
      389
      400
      385
      405
      404
      422
      451
      421
      403
      408
      411
      401
      455
      443
      434
      408
      386
      431
      396
      397
      410
      364
      410
      449
      445
      406
      421
      446
      402
      438
      437
      421
      453
      404
      415
      357
      386
      390
      461
      429
      439
      419
      405
      401
      415
      421
      374
      440
      385
      439
      416
      383
      388
      387
      433
      428
      417
      400
      430
      374
      398
      367
      402
      453

File: copper13.uxd
; (content of file: C:\Users\usmial\AppData\Local\Microsoft\Windows\INetCache\Content.Outlook\85Y1ATVD\Poudre Cu et etalon inco 01-06-21.stx, Point: Poudre Cu)
_FILEVERSION = 2
_SAMPLE = Poudre Cu et etalon inco 01-06-21
_+SAMPLE = "Poudre Cu et etalon inco 01-06-21, Poudre Cu"
_SITE =
_USER =
_GONIOMETER_CODE = 9999
; Goniometer: StressDiff, stage: Unknown
_GONIOMETER_RADIUS = 130.000
_ATTACHMENTS_CODE = 0
_BETA_FILTER = Y
_WL_UNIT = A
_WL1 = 2.10187
_WL2 = 2.10583
_WLRATIO = 0.500
_ANODE = Mn

; Data for Point: Poudre Cu, Direction: Direction 13
_DRIVE = 2THETA
_STEPTIME = 60.00
_STEPSIZE = 0.0220
_STEPMODE = S
_START = 137.894
_THETA = 76.000
_2THETA = 137.894
_KHI = 39.232
_PHI = 90.000
_X = -94.693
_Y = -392.395
_Z = -42.780
_VARDIVERGENCE = Unkn
_VARANTISCATTER = 9999
_DETECTOR = 0
; Detector type : Unknown
_DETECTORSLIT = out
_AUX1 = 0
_AUX2 = 0
_AUX3 = 0
_TEMP_RATE = -1
_TEMP_DELAY = -1
_KV = 20.00
_MA = 1.00
_RANGE_WL = 2.10187
_3DPLANE = 0
_V4_COUNTERS_MASK = 4096
_V4_DRIVES_MASK = 0
_V4_ENCODERS_MASK = 0
_COUNTS = 1
; PSD
      351
      352
      308
      290
      335
      328
      307
      312
      370
      347
      321
      345
      319
      310
      327
      348
      306
      300
      320
      335
      324
      323
      357
      397
      330
      340
      356
      361
      365
      355
      337
      377
      344
      353
      322
      340
      306
      298
      333
      356
      314
      323
      328
      347
      337
      338
      333
      316
      340
      319
      334
      354
      338
      364
      350
      349
      342
      339
      334
      389
      351
      397
      342
      362
      414
      348
      373
      373
      344
      326
      331
      422
      358
      399
      402
      385
      371
      427
      396
      378
      430
      408
      420
      372
      454
      388
      437
      452
      421
      473
      532
      459
      474
      509
      595
      624
      710
      814
      901
     1049
     1162
     1111
     1105
     1173
     1158
     1301
     1160
     1066
     1034
      986
      846
      755
      720
      650
      620
      609
      557
      550
      508
      510
      456
      452
      429
      418
      413
      415
      403
      407
      435
      398
      389
      424
      443
      401
      412
      398
      399
      434
      406
      391
      395
      400
      362
      370
      422
      411
      411
      371
      378
      382
      367
      365
      403
      407
      377
      420
      422
      373
      415
      388
      405
      407
      425
      409
      395
      373
      444
      395
      404
      414
      405
      415
      395
      393
      387
      427
      418
      412
      384
      407
      378
      418
      421
      446
      397
      458
      395
      410
      419
      388
      411
      411
      410
      377
      406
      404
      387
      415
      417
      413
      395
      418
      436
      428
      388
      468
      459
      399
      409
      408
      461
      403
      433
      425
      391
      381
      428
      418
      452
      460
      438
      397
      405
      403
      407
      407
      442
      413
      435
      400
      372
      440
      397
      371
      445
      431
      393
      434
      428
      332
      379
      423
      387
      407
      396
      410
      383
      393
      403
      448
      395
      406
      408
      391
      383
      424
      464